File: Ceramic Product Lab Testing/ML_model/magnesia_carbon_data.csv
sample_id,setting,total_carbon_wt%,graphite_wt%,carbon_black_wt%,resin_wt%,pitch_wt%,graphene_wt%,cnt_wt%,gnp_wt%,antioxidant_wt%,mgo_purity_pct,d50_micron,porosity_pct,density_g_cm3,thermal_conductivity_W_mK,oxidation_mass_loss_pct,oxidation_penetration_mm,hot_MOR_MPa,slag_contact_angle_deg,residual_strength_pct_after_shock,dominant_carbon_source
S0001,lab,6.866,0.466,0.087,4.734,1.507,0.07,0,0.001,1.883,97.87,28.55,0.2,3.58,7.634,0,6.036,178.13,81.41,75.11,resin
S0003,lab,7.987,1.492,2.682,0.068,0.001,0.039,3.704,0.002,1.531,86.4,47.79,5.518,3.376,24.111,0,0,312.235,133.52,150,cnt
S0005,lab,10.405,3.659,5.997,0.243,0.196,0.137,0.173,0,2.629,95.9,17.25,8.632,3.264,12.544,0.517,9.529,177.539,94.81,79.38,carbon_black
S0007,industrial,9.678,7.247,0.026,0.843,0.246,0.002,1.314,0,0.838,87.42,12.98,2.242,3.461,27.092,0,2.496,225.509,117.39,114.41,graphite
S0009,lab,4.069,1.385,1.07,0.365,0.124,0.007,0.001,1.117,2.623,93.31,31.11,3.534,3.462,13.28,0,0,223.471,97.94,120.55,graphite
S0011,industrial,10.282,2.459,3.231,4.217,0.339,0.035,0.001,0,1.278,94.39,12.37,4.776,3.394,8.725,1.28,9.584,149.858,86.64,56.79,resin
S0013,lab,6.943,4.841,1.625,0.441,0.009,0.026,0,0.001,2.32,85.88,1.3,4.252,3.412,14.975,0,3.835,166.868,99.54,75.21,graphite
S0015,lab,2.919,0.344,0.647,1.799,0.083,0.019,0,0.027,1.053,96.4,49.92,2.478,3.515,5.131,0.085,1.173,179.465,81.83,77.75,resin
S0017,lab,2.89,0.814,0.365,0.504,0.318,0.001,0.84,0.047,2.557,98.63,16.11,2.829,3.446,10.416,0,0,227.062,91.12,111.04,cnt
S0019,lab,3.485,1.094,0.749,0.918,0.203,0.315,0.201,0.006,2.154,97.45,39.3,3.341,3.486,8.799,0,0.203,207.844,87.65,94.84,graphite
S0021,lab,5.241,1.946,1.061,0.835,0.466,0.031,0.857,0.044,2.705,95.61,41.03,2.926,3.469,13.706,0,0.359,222.421,97.53,107.74,graphite
S0023,lab,3.266,1.937,0.092,0.708,0.291,0.23,0.007,0.002,2.857,86.68,8.33,0.296,3.58,10.097,0,0,177.904,87.48,73.12,graphite
S0025,lab,4.16,1.814,0.018,1.089,0.6,0.002,0.636,0,1.131,90,23.96,0.709,3.556,10.798,0,0.77,208.514,88.05,93.04,graphite
S0027,lab,7.121,2.05,3.772,0.396,0.872,0.015,0.015,0,0.824,95.61,15.16,4.373,3.425,11.926,2.265,4.647,157.039,86.32,68.1,carbon_black
S0029,lab,3.854,2.22,0.742,0.404,0.009,0.239,0.214,0.027,0.908,85.21,38.35,4.775,3.405,15.368,0,0.382,167.767,96,77.88,graphite
S0031,industrial,2.307,1.474,0.541,0.096,0.132,0.063,0,0.001,1.315,98.14,39.11,2.853,3.475,7.295,0,0,179.919,90.35,95.81,graphite
S0033,lab,6.073,2.274,2.289,1.269,0.172,0.001,0.06,0.008,2.685,86.82,13,2.525,3.505,8.851,0,5.693,144.757,89.29,64.08,carbon_black
S0035,lab,2.742,1.243,0.422,0.608,0.326,0.032,0.052,0.06,0.613,85.29,7.7,2.151,3.492,8.191,0.27,1.906,138.298,87.71,56.98,graphite
S0037,lab,6.947,3.835,0.374,0.123,2.44,0.04,0.011,0.124,0.793,93.82,30.66,3.793,3.466,15.391,0.682,6.154,177.956,91.52,73.92,graphite
S0039,industrial,3.421,1.16,0.541,1.22,0.003,0,0.131,0.366,0.27,90.57,34.33,3.518,3.443,8.705,0,1.807,176.69,93.74,88.63,resin
S0041,lab,1.883,0.509,0.64,0.536,0.106,0,0,0.093,0.341,93.74,17.19,1.978,3.492,8.041,0,2.256,173.194,84.3,78.68,carbon_black
S0043,lab,10.282,2.279,4.015,3.112,0.027,0.167,0.591,0.092,0.9,98.11,18.12,6.637,3.321,15.056,0.634,5.373,188.808,96.84,94.05,carbon_black
S0045,lab,4.742,3.392,0.482,0.779,0.052,0.001,0.01,0.025,1.813,90.97,19.34,1.89,3.503,11.261,0.273,3.906,177.584,92.53,66.56,graphite
S0047,industrial,3.246,1.165,0.256,0.719,0.635,0.296,0,0.173,2.284,96.99,5.33,0.2,3.574,8.908,0,0,203.747,89.91,88.53,graphite
S0049,lab,9.223,6.629,0.292,0.221,0.649,1.432,0,0,0.736,88.03,42.8,5.327,3.387,26.328,0,0,205.416,122.38,107.16,graphite
S0051,industrial,7.092,1.413,2.8,0.944,0.362,0.013,0.106,1.455,0.025,85,4.17,4.037,3.43,17.25,0,0,192.432,100.06,116.12,carbon_black
S0053,lab,4.528,3.39,0.172,0.803,0.058,0.02,0,0.085,0.599,86.56,11.36,1.524,3.531,14.499,0,1.426,148.742,93.78,75.98,graphite
S0055,industrial,8.805,2.46,1.193,0.099,3.666,0.27,1.116,0.001,1.027,89.17,4.14,4.023,3.444,16.04,0,0,216.313,105.97,120.43,pitch
S0057,lab,3.726,0.81,0.136,0.091,0.029,1.431,1.229,0.001,2.121,90.57,39.85,0.2,3.531,22.012,0,0,314.461,120.43,150,graphene
S0059,lab,5.444,2.048,1.044,1.789,0.56,0,0.002,0,0.954,85.78,11.15,1.552,3.486,5.608,0.554,5.115,148.226,86.04,67.42,graphite
S0061,lab,2.889,1.107,0.559,0.941,0.253,0.005,0.009,0.016,2.192,91.99,7.58,2.402,3.493,8.789,0,0.353,183.288,88.18,77.05,graphite
S0063,industrial,6.307,1.237,0.246,1.886,2.847,0.074,0.009,0.008,0.034,89.14,49.62,1.601,3.513,8.743,0,4.83,159.942,94.22,62.72,pitch
S0065,lab,2.544,1.561,0.105,0.275,0.012,0.589,0.001,0,0.396,97.54,27.56,1.582,3.479,12.343,0,0.248,199.799,99.9,86.34,graphite
S0067,lab,3.56,1.363,1.773,0.381,0.005,0.037,0,0.001,0.642,86.7,42.16,1.875,3.463,9.628,0.836,2.493,142.565,79.79,66.92,carbon_black
S0069,lab,2.872,0.553,0.082,1.029,0.757,0.026,0.001,0.424,0.593,98.65,1.81,2.56,3.475,8.333,0,0.79,209.12,91.41,93.34,resin
S0071,industrial,6.566,5.638,0.35,0.532,0.016,0,0,0.03,0.348,90.84,33.09,2.595,3.407,14.772,1.01,4.994,148.848,99.67,59.58,graphite
S0073,lab,3.369,1.801,1.357,0.138,0.064,0,0.008,0,0.153,95.59,49.14,4.501,3.417,8.1,0.406,3.338,164.428,88.77,56.3,graphite
S0075,industrial,4.984,2.776,0.939,0.954,0.243,0,0.072,0,0.427,91.69,47.87,3.87,3.41,8.947,0,4.715,144.35,87.4,57.52,graphite
S0077,lab,8.771,1.128,0.281,4.947,0.436,0.005,0.031,1.943,0.204,85.15,43.33,0.713,3.543,16.103,0,0,246.396,101.52,150,resin
S0079,lab,5.191,0.897,0.272,2.012,0.222,0,1.778,0.01,1.527,93.45,49.49,0.802,3.515,16.479,0,0,263.202,107.57,126.55,resin
S0081,lab,1.342,0.522,0.445,0.337,0.018,0,0,0.021,2.855,97.87,26.3,0.994,3.556,4.901,0,1.212,200.767,82.1,72.33,graphite
S0083,lab,6.379,2.688,1.669,0.537,0.23,0.806,0.414,0.034,2.339,98.85,22.2,2.991,3.424,17.19,0,0,231.661,100.08,115.78,graphite
S0085,lab,2.44,0.817,0.168,0.386,0.368,0.648,0.051,0.001,1.365,98.97,49.33,1.656,3.456,10.538,0,0,219.188,86.1,93.55,graphite
S0087,lab,4.448,0.909,1.465,0.131,1.892,0,0.051,0,2.841,96.79,30.6,0.555,3.58,8.228,0,0.624,200.587,87.54,82.41,pitch
S0089,lab,7.767,4.341,0.486,2.84,0.038,0.008,0,0.055,1.737,88.23,42.27,2.535,3.521,14.099,0,5.433,163.51,96.8,71.87,graphite
S0091,lab,4.721,0.98,0.41,2.76,0.18,0.016,0.187,0.188,0.14,98.71,20.8,3.305,3.447,9.614,0,0.969,185.296,93.94,83.89,resin
S0093,lab,5.312,2.888,0.318,0.416,0.211,0.004,0.433,1.042,0.941,97.19,29.99,1.134,3.559,21.167,0,0,239.123,111.41,121.3,graphite
S0095,lab,6.364,3.382,1.223,0.748,0.719,0.016,0.172,0.104,0.344,85.29,1.06,3.16,3.389,10.588,0,3.614,145.686,92.42,80.82,graphite
S0097,lab,7.44,1.578,0.48,0.56,4.484,0.143,0,0.196,0.083,88.34,10.26,3.51,3.467,8.926,0,6.81,161.52,90.82,82.46,pitch
S0099,lab,4.262,0.964,1.26,0.863,1.007,0.163,0.006,0,0.421,92.92,33.01,3.567,3.431,6.386,0,4.447,158.155,86.25,76.23,carbon_black
S0101,lab,4.59,3.059,0.693,0.439,0.327,0.069,0.001,0.003,2.189,87.28,16.36,1.623,3.56,13.304,0,3.33,159.84,92.68,77.72,graphite
S0103,industrial,2.586,0.55,0.954,0.073,0.661,0.231,0.03,0.087,1.697,87.6,29.43,1.446,3.539,8.246,0,0,164.294,91.25,79.89,carbon_black
S0105,lab,4.837,2.415,0.333,0.995,0.006,0.194,0.003,0.89,0.535,90.82,36.34,2.292,3.487,14.969,0,0,206.7,99.24,102.16,graphite
S0107,lab,3.281,0.815,0.621,1.468,0.282,0.001,0.084,0.009,1.211,91.78,5.37,2.186,3.523,7.999,0,3.024,171.419,78.76,78.78,resin
S0109,lab,5.231,1.159,3.039,0.89,0.046,0.085,0.011,0,0.51,86.81,21.88,3.561,3.48,9.613,0,7.201,146.452,88.73,68.85,carbon_black
S0111,lab,1.785,0.391,0.185,0.444,0.017,0.276,0.028,0.445,2.615,97.03,11.67,0.564,3.562,10.552,0,0,222.86,95.97,97.84,gnp
S0113,industrial,3.47,0.976,1.074,0.73,0.21,0.018,0.389,0.073,2.855,96.57,5.94,1.104,3.495,8.814,0,0,217.327,93.16,94.08,carbon_black
S0115,lab,9.556,1.733,3.244,4.282,0.295,0,0,0.001,0.435,88.81,34.31,6.431,3.332,7.856,1.593,7.705,138.588,85.69,53.3,resin
S0117,industrial,7.312,3.455,0.092,0.224,1.054,2.483,0.004,0,2.588,95.11,43.2,1.146,3.527,23.97,0,0,293.036,125.87,150,graphite
S0119,lab,8.603,5.413,0.849,0.24,2.083,0.014,0.003,0.001,0.013,86.84,7.59,3.329,3.424,17.614,1.663,9.516,154.425,107.25,65.35,graphite
S0121,lab,6.725,3.06,2.318,0.384,0.341,0.588,0.018,0.015,1.793,94.72,33.46,2.762,3.469,14.176,0,2.344,193.328,100.93,91.15,graphite
S0123,lab,6.011,3.223,1.002,1.559,0.108,0.118,0.001,0,0.4,96.85,27.02,3.096,3.554,12.657,0.577,4.879,156.33,92.95,75.16,graphite
S0125,lab,8.634,5.245,0.016,1.205,2.002,0.166,0,0,2.766,98.36,32.23,2.141,3.497,17.389,0,7.11,199.385,107.75,84.7,graphite
S0127,lab,1.614,0.619,0.271,0.214,0.493,0.017,0,0,1.769,97.79,29.71,0.2,3.55,6.112,0,0,191.072,80.73,76.97,graphite
S0129,lab,3.957,2.366,0.398,0.921,0.271,0,0,0,1.287,96.86,13.19,2.178,3.517,10.746,0.642,2.01,184.539,88.96,61.13,graphite
S0131,lab,4.463,1.696,2.093,0.211,0.395,0.039,0.02,0.009,1.115,87.75,45.21,3.913,3.509,5.96,1.817,3.884,138.578,86.92,62.99,carbon_black
S0133,lab,8.995,4.544,0.194,1.437,0.295,1.042,0.008,1.476,2.187,91.34,39.18,1.422,3.575,28.28,0,0,287.76,131.98,150,graphite
S0135,lab,1.574,0.55,0.246,0.43,0.219,0.026,0.021,0.083,2.944,86.4,3.92,0.2,3.58,5.237,0,0,183.916,93.26,77.48,graphite
S0137,lab,6.02,2.681,1.994,0.972,0.202,0.012,0,0.158,2.765,95.53,7.38,1.39,3.58,13.422,0,3.487,194.513,92.8,85.42,graphite
S0139,lab,6.419,2.713,2.796,0.675,0.049,0.001,0.169,0.016,0.726,89.49,40.76,4.901,3.419,13.292,0,6.166,149.334,94.96,70.91,carbon_black
S0141,industrial,6.322,3.382,0.065,0.159,2.467,0,0.231,0.017,1.299,93.72,6.97,0.271,3.554,12.996,0.13,3.31,175.289,98.45,85.76,graphite
S0143,industrial,2.486,1.39,0.211,0.325,0.542,0,0.007,0.009,1.35,97.05,17.9,0.2,3.572,6.626,0,3.673,206.509,82.58,83.84,graphite
S0145,lab,7.509,5.528,0.612,0.283,0.019,0.088,0.021,0.958,1.401,97.84,27.54,2.85,3.434,19.869,0,0.292,217.788,116.86,102.58,graphite
S0147,lab,3.57,1.079,1.756,0.099,0.029,0,0.152,0.455,0.598,88.85,5.95,3.414,3.488,8.639,0,1.114,184.224,84.05,77.36,carbon_black
S0149,lab,4.215,2.141,0.136,0.474,0.158,0,1.302,0.004,2.266,85.05,45.84,0.2,3.579,16.225,0,0,217.818,98.4,114.68,graphite
S0151,lab,6.204,4.75,0.523,0.312,0.606,0.01,0,0.003,2.066,86.5,41.3,0.2,3.535,13.358,0,4.737,168.489,102.53,69,graphite
S0153,industrial,4.408,2.894,0.644,0.774,0.096,0,0,0,1.444,93.25,13.92,1.249,3.552,11.609,0,3.249,163.806,100.02,71.73,graphite
S0155,industrial,1.647,0.456,0.692,0.36,0.003,0.011,0.118,0.007,2.453,87.45,38.49,0.2,3.58,2.874,0,0,165.194,89.14,82.38,carbon_black
S0157,industrial,3.513,2.188,0.974,0.183,0.139,0.003,0,0.025,1.221,98.26,36.13,2.586,3.463,7.755,0,2.312,182.691,84.48,64.85,graphite
S0159,lab,4.516,2.213,0.406,0,1.081,0.089,0.36,0.368,0.509,87.18,32.3,3.873,3.419,14.29,0,0,175.556,94,83.16,graphite
S0161,lab,7.459,3.211,1.579,1.786,0.771,0.109,0,0.004,1.836,85.53,21.86,3.507,3.52,12.131,0,5.721,161.068,92.14,68.05,graphite
S0163,industrial,6.953,2.537,0.15,0.265,3.05,0.783,0.06,0.108,0.762,85.07,2.54,2.077,3.529,16.596,0,0.061,199.757,100.24,94.89,pitch
S0165,lab,8.309,4.834,1.757,1.614,0.101,0,0.003,0,2.064,89.3,22.48,2.23,3.516,12.656,0.666,7.132,156.263,101.49,67.67,graphite
S0167,lab,3.267,2.495,0.734,0.015,0.014,0,0,0.008,1.636,89.44,28.33,1.059,3.532,10.6,1.04,2.199,164.021,87.2,78.65,graphite
S0169,lab,1.387,0.126,0.336,0.36,0.198,0.01,0.001,0.357,1.358,86.12,24.32,0.2,3.58,9.64,0,0,182.745,93.14,78.6,resin
S0171,industrial,5.388,1.246,0.88,2.026,0.024,0.202,0.457,0.553,1.264,95.83,20.03,2.032,3.515,11.59,0,0,236.605,98.91,121.05,resin
S0173,industrial,9.178,3.262,0.608,0.297,3.626,0,1.385,0,1.771,97.99,23.11,1.319,3.554,22.04,0,0.579,245.543,114.13,113.69,pitch
S0175,industrial,9.349,5.698,0.458,2.774,0.02,0.004,0.38,0.015,1.743,97.18,44.88,3.924,3.497,15.372,0,8.415,179.438,102.55,85.39,graphite
S0177,industrial,1.029,0.562,0.072,0.114,0.003,0.243,0.03,0.005,1.196,98.71,44.63,0.2,3.58,4.806,0,0,209.551,90.78,87.05,graphite
S0179,lab,4.464,0.266,2.418,0.69,1.081,0,0.009,0,1.25,89.61,2.71,2.178,3.523,2.41,0.304,3.496,161.354,77.16,72.06,carbon_black
S0181,industrial,10.622,2.167,5.29,0.569,2.151,0.215,0,0.232,0.296,96.87,14.66,9.077,3.288,10.702,1.461,8.943,156.264,84.81,69.58,carbon_black
S0183,lab,3.907,0.343,0.232,0.419,1.883,0.011,0.982,0.037,0.916,93.74,32.81,1.892,3.516,10.539,0,0,206.322,97.88,105.47,pitch
S0185,lab,5.153,2.417,0.005,1.206,0.015,1.494,0,0.015,1.127,96.71,7.63,0.2,3.577,17.871,0,0,240.433,107.14,125.44,graphite
S0187,lab,7.525,3.459,2.952,0.465,0.617,0.005,0.01,0.017,1.591,85.99,31.89,4.729,3.432,13.555,1.201,6.378,143.959,100.44,58.08,graphite
S0189,industrial,8.887,4.443,1.076,2.374,0.981,0,0.012,0.001,0.78,93.08,43.12,2.071,3.432,13.341,0,9.362,153.994,91.44,74.98,graphite
S0191,industrial,6.033,0.219,0.445,4.689,0.314,0.177,0.099,0.091,1.59,98.64,10.88,1.97,3.524,7.465,0,2.643,205.67,90.22,98.89,resin
S0193,lab,2.925,0.41,0.174,0.093,0.462,0.004,1.782,0,1.095,85.85,12.78,0.2,3.58,15.873,0,0,232.767,109.55,124.34,cnt
S0195,industrial,2.644,1.636,0.157,0.632,0.113,0.069,0,0.036,2.021,92.91,45.82,0.2,3.58,10.929,0,0.078,203.559,87.1,82.82,graphite
S0197,lab,9.758,5.302,0.662,1.68,0.345,0,1.768,0,1.426,89.33,37.17,3.778,3.436,23.361,0,0,234.715,118.37,131.07,graphite
S0199,lab,5.19,3.895,0.13,0.106,0.427,0,0.632,0,1.882,89.74,2.41,0.964,3.515,15.691,0,1.664,193.782,102.38,83.18,graphite
S0201,lab,7.486,1.535,0.051,1.977,2.684,0.77,0.232,0.237,1.393,92.61,27.36,0.45,3.551,14.457,0,0,224.351,96.14,119.4,pitch
S0203,industrial,2.812,0.916,1.624,0.134,0.08,0.058,0.001,0,1.523,92.61,11.55,3.257,3.448,5.022,0.312,2.091,162.098,92.17,75.37,carbon_black
S0205,lab,0.811,0.364,0.062,0.017,0.35,0,0.005,0.014,2.791,96.92,40.72,0.376,3.58,3.886,0,0,182.557,78.4,83.51,graphite
S0207,industrial,5.301,0.553,2.046,1.179,1.305,0.001,0,0.218,2.357,87.9,37.57,3.239,3.452,8.313,0,4.102,179.329,80.82,76.3,carbon_black
S0209,lab,6.028,0.961,0.075,1.447,1.648,0.002,1.896,0,1.635,90.01,34.24,1.513,3.511,16.792,0,0,251.94,101.07,144.78,cnt
S0211,industrial,7.764,1.026,0.42,3.429,2.685,0.176,0,0.028,1.332,91.35,49.6,3.254,3.455,6.879,0,6.096,167.159,91.68,67.74,resin
S0213,lab,4.474,1.132,0.784,0.924,0.545,0,0.675,0.414,2.495,86.34,21.14,0.2,3.577,15.772,0,0,205.898,97.87,113.63,graphite
S0215,lab,8.173,0.395,4.383,3.054,0.177,0.162,0.002,0,1.244,98.77,11,7.322,3.331,3.752,2.547,5.794,160.448,72.33,73.53,carbon_black
S0217,lab,2.064,1.032,0.843,0.173,0.012,0.001,0.001,0.003,2.585,87.24,45.94,2.302,3.491,4.759,0,0.098,160.533,83.15,63.48,graphite
S0219,lab,3.604,1.493,0.531,0.909,0.049,0.006,0.327,0.288,1.866,89.62,9.81,0.925,3.528,13.028,0,0.137,199.967,89.84,98.06,graphite
S0221,lab,3.094,2.667,0.005,0.005,0.169,0,0.118,0.13,1.199,95.6,23.3,0.958,3.526,13.858,0,0,177.869,91.18,82.2,graphite
S0223,lab,10.617,2.779,6.198,0.534,0.479,0.376,0.219,0.033,0.302,92.14,12.45,8.381,3.223,13.695,2.553,6.172,159.989,95.31,82.11,carbon_black
S0225,lab,5.275,4.059,0.166,0.329,0.685,0.034,0.002,0,0.921,91.12,1.38,3.583,3.404,14.16,0.431,5.899,159.753,87.56,59.43,graphite
S0227,lab,6.047,3.757,0.205,0.144,0.195,0,1.742,0.004,2.608,92.9,39.89,1.72,3.496,17.912,0,0,266.907,116.39,140.32,graphite
S0229,lab,4.175,1.435,0.839,0.269,1.439,0.192,0.001,0,0.244,96.1,30.56,3.006,3.467,7.286,0.192,2.088,178.166,88.3,80.19,pitch
S0231,industrial,4.54,1.755,1.302,0.428,0.52,0.501,0,0.034,1.009,94.06,33.1,2.622,3.519,11.375,0,2.266,194.522,87.13,90.95,graphite
S0233,industrial,8.751,3.569,0.357,2.715,1.356,0.276,0.479,0,0.096,91,17.98,1.751,3.518,18.693,0,7.314,191.469,103.27,94.18,graphite
S0235,industrial,3.995,2.034,0.449,0.341,0.904,0.003,0.043,0.222,2.059,98.68,38.16,2.458,3.551,6.978,0,1.503,196.621,84.64,90.74,graphite
S0237,industrial,2.64,1.363,0.497,0.195,0.289,0,0,0.295,2.573,89.52,6.05,0.767,3.544,11.029,0,0,203.378,84.87,91.5,graphite
S0239,lab,3.647,1.361,0.142,1.873,0.128,0.031,0.112,0,0.646,90.81,5.62,0.451,3.576,7.984,0,4.644,168.623,87.19,78.39,resin
S0241,lab,8.383,4.429,0.629,0.299,1.642,0,0.028,1.356,1.299,98.41,3.53,4.571,3.411,23.431,0,0.463,234.666,115.36,131.8,graphite
S0243,lab,7.898,3.503,0.116,1.541,2.65,0.082,0,0.007,0.548,97.25,37.91,2.108,3.436,12.595,0,5.8,169.829,97.33,73.09,graphite
S0245,lab,6,1.745,0.353,2.1,0.016,0.013,1.767,0.006,2.178,92.67,38.4,0.2,3.577,17.951,0,0,254.486,110.57,141.45,resin
S0247,industrial,4.609,0.567,0.066,0.459,3.02,0.005,0.491,0,2.487,95.7,13.05,0.2,3.53,8.007,0,0,214.869,92.54,99.37,pitch
S0249,lab,3.85,3.018,0.566,0.102,0.001,0.046,0.117,0,1.167,93.76,37.64,2.572,3.532,12.642,0.726,2.655,168.977,101.14,78.16,graphite
S0251,lab,3.265,2.174,0.334,0.342,0.074,0.064,0.209,0.067,1.73,87.95,11.31,0.2,3.58,14.383,0,0.732,190.114,91.93,90.84,graphite
S0253,industrial,2.948,1.112,0.468,0.908,0.183,0.005,0.244,0.028,1.208,89.04,46.15,0.452,3.58,11.303,0,3.313,176.36,92.37,78.47,graphite
S0255,lab,8.953,2.934,2.601,0.105,3.164,0.141,0.001,0.008,1.203,92.93,9.47,4.836,3.395,11.195,0,8.616,166.49,91.44,76.66,pitch
S0257,lab,4.539,2.756,0.423,0.462,0.034,0.279,0.003,0.582,1.448,92.69,21.93,1.933,3.506,16.154,0,0,203.853,104.19,105.51,graphite
S0259,lab,5.049,1.591,2.381,0.105,0.08,0.25,0.312,0.331,0.881,88.42,36.97,4.527,3.355,14.325,0,0,172.973,96.98,97.02,carbon_black
S0261,lab,4.42,0.411,0.128,0.405,0.097,0.566,0.154,2.659,2.361,96.89,40.89,0.2,3.58,24.816,0,0,335.339,120.77,150,gnp
S0263,lab,8.277,5.643,0.208,1.898,0.476,0.001,0.035,0.016,1.641,87.61,31.14,0.891,3.55,16.545,0.295,6.268,164.238,104.97,71.12,graphite
S0265,industrial,5.542,3.744,1.482,0.139,0.065,0.053,0,0.058,1.196,97.22,41.96,3.416,3.485,12.218,0.469,5.286,165.86,100.22,71.96,graphite
S0267,lab,4.061,0.199,0.08,1.301,1.921,0.265,0.294,0.001,2.998,94.23,7.71,0.2,3.562,9.539,0,0,208.788,87.55,103.21,pitch
S0269,lab,2.202,0.65,0.383,0.448,0.701,0.001,0,0.02,2.653,88.67,13.69,0.2,3.58,5.526,0,1.802,177.608,81.2,80.99,pitch
S0271,industrial,7.221,3.391,0.608,1.055,1.483,0.047,0,0.637,1.023,96.16,36.36,3.052,3.496,13.892,0,3.358,202.728,102.85,97.09,graphite
S0273,lab,8.939,1.334,1.48,5.338,0.349,0.003,0.203,0.23,2.522,96.87,43.97,1.292,3.536,7.455,0,3.051,195.416,94.61,92.75,resin
S0275,industrial,5.416,3.55,0.592,0.909,0.189,0.039,0,0.136,0.481,89.16,40.07,2.892,3.5,12.295,0.343,4.192,162.986,94.94,82.71,graphite
S0277,lab,8.627,5.291,0.338,0.394,2.022,0.568,0,0.014,1.006,87.6,17.09,2.891,3.433,18.476,0,4.124,167.055,102.62,85.38,graphite
S0279,lab,4.073,1.777,1.487,0.268,0.536,0.001,0.004,0,1.795,95.12,9.21,2.594,3.507,8.727,0.287,3.234,168.959,87.76,76.83,graphite
S0281,lab,0.736,0.042,0.122,0.059,0.307,0.012,0.193,0,1.145,96.48,27.97,0.2,3.58,5.439,0,0,194.511,85.18,85.08,pitch
S0283,lab,5.114,1.506,2.428,1.073,0.061,0.004,0.042,0,1.883,86.07,6.52,3.355,3.422,11.595,0.231,5.106,140.222,82.18,63.47,carbon_black
S0285,lab,5.732,0.995,2.558,0.905,0.176,0,0.003,1.095,0.423,96.23,37.44,5.473,3.399,12.828,0,0,191.806,98.73,103.89,carbon_black
S0287,lab,5.416,1.653,0.888,0.312,2.067,0.429,0.064,0.003,2.564,95.64,3.86,4.172,3.46,9.773,0,2.27,204.424,89.81,93.71,pitch
S0289,lab,7.66,0.35,2.585,2.393,0.059,1.893,0.313,0.066,0.054,91.35,5.15,5.103,3.285,16.674,0,0,244.882,101.97,150,carbon_black
S0291,lab,4.898,2.381,2.38,0.103,0.016,0,0.018,0,0.208,98.64,45.45,6.068,3.319,8.357,2.484,5.539,154.056,91.21,60.48,graphite
S0293,lab,7.034,2.102,3.722,0.237,0.883,0.083,0.001,0.007,2.269,97.92,46.38,4.48,3.36,8.972,0.039,7.654,185.134,83.23,75.87,carbon_black
S0295,lab,2.264,0.628,0.374,0.367,0.55,0,0.321,0.025,2.515,98.85,41.6,0.2,3.58,7.705,0,0,211.503,87.04,95.77,graphite
S0297,industrial,6.017,1.423,2.389,1.591,0.038,0,0.048,0.527,2.07,91.49,16,1.545,3.479,11.895,0,1.309,186.664,96.64,87.4,carbon_black
S0299,lab,9.012,1.696,2.841,0.492,1.079,2.706,0.017,0.181,0.251,88.82,17.03,3.787,3.411,23.116,0,0,267.502,122.19,150,carbon_black
S0301,industrial,4.214,0.453,2.282,1.344,0.114,0.019,0,0.001,0.378,86.59,9.46,3.037,3.515,5.094,0.571,3.035,128.972,81.38,49.55,carbon_black
S0303,industrial,8.004,4.357,0.413,2.053,0.091,0.755,0,0.335,2.554,89.87,23.93,1.509,3.567,20.417,0,0.314,218.31,104.85,106.89,graphite
S0305,lab,6.987,4.685,1.807,0.403,0.05,0.01,0,0.032,1.519,93.51,29.84,2.261,3.502,13.12,0.421,7.684,156.051,96.62,55.48,graphite
S0307,lab,1.587,0.942,0.247,0.214,0.007,0,0.057,0.119,2.124,96.93,37.66,1.592,3.504,8.319,0,0,196.666,95.35,79.03,graphite
S0309,lab,8.121,5.624,2.274,0.025,0.087,0.109,0,0.001,0.365,98.45,29.55,2.906,3.429,18.237,0.498,5.218,147.764,105.9,69.28,graphite
S0311,lab,4.841,1.385,0.739,0.66,0.166,1.862,0.029,0,1.444,87.45,10.14,0.477,3.579,16.327,0,0,243.109,102.76,138.41,graphene
S0313,lab,7.592,2.817,1.852,0.074,2.259,0.479,0.026,0.083,1.272,94.08,13.18,3.418,3.437,15.187,0,1.848,198.116,105.44,85.75,graphite
S0315,lab,7.413,1.563,0.691,1.474,0.66,2.764,0.023,0.237,2.835,85.21,37.75,0.2,3.553,25.946,0,0,311.236,122.41,150,graphene
S0317,lab,10.97,2.592,3.948,1.072,0.276,0,0.145,2.937,2.86,88.52,19.22,5.397,3.398,26.593,0,0,293.52,127.01,150,carbon_black
S0319,lab,2.092,0.48,0.773,0.328,0.46,0,0.001,0.051,2.172,91.82,7.72,2.306,3.534,5.469,0,1.975,177.119,82.76,75.27,carbon_black
S0321,lab,11.472,4.107,0.002,6.844,0.304,0.128,0.016,0.07,2.037,94.43,3.67,2.763,3.485,11.547,0,9.768,192.275,94.7,78.12,resin
S0323,industrial,12.163,7.217,4.02,0.603,0.275,0.038,0,0.009,1.694,89.12,42.01,8.13,3.279,16.843,2.678,11.502,132.576,111.17,46.39,graphite
S0325,industrial,8.658,2.977,4.894,0.287,0.499,0,0.001,0,2.465,86.09,43.85,6.242,3.382,11.162,2.41,8.469,141.608,93.42,70.62,carbon_black
S0327,lab,2.952,1.489,0.303,0.416,0.711,0.004,0.029,0,2.546,87.16,16.94,0.2,3.531,10.85,0,0,177.381,85.99,81.18,graphite
S0329,lab,11.384,9.788,0.461,0.149,0.786,0,0.001,0.199,0.761,93.79,31.41,3.137,3.502,23.781,1.355,8.386,167.604,121.62,76.72,graphite
S0331,lab,7.708,3.85,0.196,2.749,0.64,0.001,0.22,0.051,1.296,88.24,31.05,0.776,3.58,12.942,0,5.419,171.518,104.08,74.76,graphite
S0333,lab,3.826,2.302,0.194,0.251,1.078,0,0,0,0.79,93.6,27.74,3.993,3.46,9.309,0.398,4.037,158.625,86.41,66.54,graphite
S0335,industrial,6.795,5.088,0.873,0.409,0.253,0.011,0.156,0.006,1.486,95.54,46.83,2.212,3.507,18.826,0.54,4.426,171.927,101.51,76.57,graphite
S0337,lab,4.195,1.698,0.738,1.163,0.173,0.048,0,0.375,2.263,90.07,18.6,1.487,3.554,9.878,0,1.598,195.837,91.52,79.98,graphite
S0339,lab,3.05,2.664,0.155,0.077,0.004,0.015,0.095,0.04,1.331,97.31,30.95,0.895,3.54,13.665,0,0,172.132,97.21,88.52,graphite
S0341,lab,6.048,4.19,1.358,0.033,0.153,0.263,0.017,0.033,0.86,98.83,19.43,3.552,3.446,14.694,0.673,5.868,177.798,102.09,68.06,graphite
S0343,lab,8.196,3.135,1.023,1.297,1.934,0,0.416,0.391,0.455,94.54,21.55,3.524,3.444,13.941,0,3.165,191.286,102.73,95.19,graphite
S0345,industrial,3.834,0.617,1.039,0.108,1.852,0.127,0.09,0,2.752,93.48,46.3,0.2,3.533,8.117,0,0,185.374,90.75,77.67,pitch
S0347,industrial,9.557,1.96,4.426,2.235,0.928,0,0,0.008,2.433,86.48,24.59,7.596,3.33,7.156,2.297,10.284,145.737,88.08,67.73,carbon_black
S0349,lab,5.793,2.657,0.095,1.842,0.794,0.004,0.389,0.011,0.752,97.46,44.97,2.691,3.486,10.914,0,2.066,193.746,94.99,88.9,graphite
S0351,lab,8.499,2.692,0.523,2.329,2.422,0.105,0.205,0.223,2.145,90.79,13.27,2.572,3.502,10.835,0,6.791,203.709,99.65,90.64,graphite
S0353,lab,2.729,1.066,0.151,1.258,0.237,0,0.004,0.013,1.991,95,40.15,0.2,3.533,5.92,0,0.773,188.806,85.47,67.89,resin
S0355,lab,3.871,1.834,0.16,0.873,0.223,0.218,0.563,0,0.134,93.6,49.22,0.2,3.542,11.241,0,0,196.43,97.57,97.31,graphite
S0357,lab,5.45,0.999,2.658,0.624,0.004,0,0.033,1.134,2.036,91.07,18.6,2.724,3.511,11.207,0,0,220.619,99.16,105.92,carbon_black
S0359,lab,2.588,2.061,0.039,0.02,0.463,0,0,0.005,2.699,88.27,9.54,0.592,3.575,11.262,0,2.802,180.915,88.15,80.18,graphite
S0361,industrial,3.053,0.939,1.609,0.077,0.377,0.006,0.046,0,0.883,93.24,47.82,3.464,3.454,6.27,1.153,2.129,171.084,84.7,66.81,carbon_black
S0363,lab,3.548,1.596,0.269,0.003,0.179,0,0.007,1.493,2.391,91.3,47.67,0.2,3.55,14.985,0,0,246.744,106.27,121.09,graphite
S0365,lab,4.374,1.616,0.735,0.135,1.594,0.041,0.252,0.002,0.392,87.26,24.57,2.427,3.486,10.496,0,2.499,169.312,95.14,68.3,graphite
S0367,lab,11.378,3.135,0.901,2.947,0.086,0.366,0.001,3.943,1.969,94.51,22.31,0.561,3.533,34.471,0,0,350,141.87,150,gnp
S0369,lab,6.44,1.142,0.962,2.059,0.496,1.014,0.641,0.126,2.509,96.1,3.84,0.2,3.58,16.529,0,0,278.578,101.31,148.89,resin
S0371,lab,5.253,0.794,2.074,1.601,0.1,0.226,0.024,0.434,2.417,95.68,3.59,3.66,3.449,8.832,0,0,192.019,82.05,95.71,carbon_black
S0373,lab,2.695,1.089,0.861,0.213,0.304,0.144,0.035,0.048,2.366,85.18,41.42,0.2,3.567,9.566,0,3.634,191.884,91.6,77.63,graphite
S0375,industrial,6.574,4.256,1.045,0.177,1.09,0.001,0.005,0,0.501,93.14,16.86,1.501,3.535,13.143,1.284,6.019,151.663,101.75,59.62,graphite
S0377,industrial,7.308,1.536,2.174,2.116,0.817,0.05,0.042,0.572,1.157,88.26,30.24,3.365,3.505,14.094,0,3.565,180.616,91.94,100.21,carbon_black
S0379,lab,4.051,0.958,2.458,0.369,0.01,0.011,0.24,0.006,0.717,92.13,30.03,2.84,3.467,7.28,0,0.941,164.285,82.71,80.86,carbon_black
S0381,lab,11.315,3.306,3.319,0.958,0.125,0,2.349,1.257,2.909,98.77,3.72,3.839,3.419,29.614,0,0,346.9,140.61,150,carbon_black
S0383,lab,5.45,3.747,0.457,0.886,0.036,0.287,0.017,0.021,2.357,91.2,5.96,2.512,3.493,16.404,0,1.948,182.37,101.76,84.03,graphite
S0385,industrial,3.371,3.201,0.11,0.002,0.013,0.002,0.001,0.042,0.112,94.55,48.11,4.871,3.498,11.306,0.92,4.247,138.369,92.1,73.08,graphite
S0387,industrial,8.837,6.121,1.236,0.983,0.228,0,0.033,0.237,0.419,89.6,26.12,1.073,3.539,17.632,0.553,6.913,163.638,102.81,72.35,graphite
S0389,lab,3.831,1.596,1.025,0.062,0.827,0.113,0.207,0,0.822,86.03,28,4.08,3.43,7.075,0,1.585,144.265,88.38,80.39,graphite
S0391,lab,8.112,4.714,0.245,1.452,1.443,0.148,0.103,0.006,0.15,91.79,30.95,2.805,3.474,15.047,0.894,6.589,164.112,108.32,74.54,graphite
S0393,industrial,6.05,2.815,0.014,0.031,2.904,0,0.215,0.071,0.214,91.8,10.59,1.114,3.544,12.349,0,2.932,186.121,93.62,84.54,pitch
S0395,industrial,4.029,0.307,1.041,0.384,1.743,0.553,0,0,1.457,86.15,2.15,2.891,3.47,9.998,0,1.696,169.37,87.05,77.53,pitch
S0397,lab,2.273,0.502,0.471,0.467,0.018,0.663,0.007,0.145,1.255,88.8,6.43,0.437,3.58,12.335,0,0,192.763,95.64,110.14,graphene
S0399,industrial,9.633,3.319,2.479,1.485,1.92,0.001,0.272,0.156,2.732,98.68,9.5,3.814,3.492,12.679,0,6.559,207.278,100.43,96.04,graphite
S0401,lab,7.801,0.887,5.241,0.834,0.749,0.032,0,0.057,2.654,87.97,21.46,5.359,3.381,8.935,0.48,6.829,146.229,86.93,66.57,carbon_black
S0403,industrial,7.355,1.165,4.105,0.229,0.065,0,1.772,0.018,1.143,98.56,33.17,4.99,3.39,14.659,0,0,233.405,103.74,122.67,carbon_black
S0405,industrial,1.313,0.204,0.136,0.189,0.779,0,0.004,0.001,1.871,97.58,20.63,0.2,3.509,2,0,0,179.708,71.04,73.74,pitch
S0407,lab,3.946,2.397,0.542,0.121,0.869,0.017,0,0,1.202,98.89,14.27,2.192,3.449,8.73,0.215,3.682,183.512,84.12,83.71,graphite
S0409,industrial,6.915,3.233,0.284,3.096,0.268,0.018,0,0.017,2.463,85.74,29.01,0.219,3.557,13.758,0,3.616,171.711,91.53,73.1,graphite
S0411,industrial,2.452,1.117,0.32,0.63,0.257,0.005,0,0.122,2.182,97.98,8.33,1.449,3.476,5.665,0,1.235,198.142,87.43,81.57,graphite
S0413,industrial,10.317,2.347,0.25,3.143,0.39,2.164,0.074,1.948,0.301,86.59,14.65,2.565,3.498,30.896,0,0,344.486,136.9,150,resin
S0415,lab,2.515,1.116,0.36,0.645,0.385,0.009,0,0,1.209,86.46,44.32,1.063,3.576,10.34,0,0,168.709,81.48,63.75,graphite
S0417,lab,4.518,1.268,1.35,1.143,0.401,0.32,0.001,0.036,2.444,98.58,26.32,1.16,3.465,11.143,0,2.102,184.399,82.63,78.25,carbon_black
S0419,lab,8.945,0.491,1.696,1.485,1.804,0.003,3.391,0.075,1.741,95.9,21.13,0.2,3.58,22.537,0,0,338.938,117.41,150,cnt
S0421,lab,6.815,1.423,0.289,0.537,0.485,2.633,0.032,1.415,0.525,92.49,26.85,0.2,3.548,29.756,0,0,340.481,133.25,150,graphene
S0423,industrial,9.877,7.74,0.944,0.334,0.111,0.726,0.015,0.008,1.826,93.34,11.19,6.109,3.405,23.938,0,3.432,191.383,123.11,108.18,graphite
S0425,lab,8.525,2.321,1.672,0.221,0.073,0.201,0.002,4.034,2.996,92.86,31.6,1.056,3.49,32.376,0,0,350,135.72,150,gnp
S0427,lab,4.24,1.228,0.829,1.979,0.061,0.004,0.091,0.047,0.896,96.53,11.66,3.317,3.46,7.376,1.01,0,179.758,90.11,68.46,resin
S0429,lab,4.845,2.03,1.862,0.373,0.005,0,0.454,0.122,2.996,90.75,48.03,5.046,3.465,8.854,0,1.28,199.898,96.7,87.74,graphite
S0431,industrial,10.622,1.292,1.705,3.391,1.06,2.971,0.2,0.003,2.385,86.4,20.63,2.573,3.458,21.587,0,0,309.39,125.21,150,resin
S0433,lab,9.104,5.023,1.536,1.627,0.001,0.012,0.104,0.801,1.066,90.2,39.17,4.843,3.433,22.774,0,0,181.311,112.3,94.95,graphite
S0435,industrial,7.729,7.038,0.23,0.438,0.001,0.008,0,0.014,2.499,90.09,9.76,4.775,3.39,17.292,0,6.763,151.269,109.34,65.7,graphite
S0437,lab,3.174,1.175,1.28,0.298,0.368,0,0.053,0,0.063,86.67,33.6,4.546,3.41,6.789,1.963,1.267,142.974,89.24,67.46,carbon_black
S0439,lab,5.297,2.554,2.381,0.155,0.103,0,0.004,0.099,0.433,86.09,44.22,4.122,3.467,10.735,0.074,2.528,148.977,91.5,72.61,graphite
S0441,lab,9.844,3.741,2.482,0.798,1.747,0.753,0.323,0,2.716,94.9,4.69,3.485,3.469,17.954,0,3.298,221.955,108.41,115.23,graphite
S0443,lab,4.641,2.476,0.817,1.108,0.193,0.044,0.003,0,0.659,90.47,22.32,3.16,3.45,11.299,0.775,4.073,170.608,83.96,70.24,graphite
S0445,lab,10.287,3.82,0.867,2.056,2.625,0.911,0.001,0.006,1.851,93.42,33.65,4.999,3.416,15.216,0,2.725,210.246,108.22,99.55,graphite
S0447,industrial,4.478,0.277,2.255,1.529,0.186,0.019,0,0.212,0.655,90.45,11.06,7.203,3.312,5.269,0,4.986,147.96,84.62,68.41,carbon_black
S0449,lab,6.389,3.444,0.102,0.668,0.475,0.003,1.608,0.088,0.71,98.86,40.38,3.047,3.421,18.447,0,0,251.715,114.94,130.55,graphite
S0451,lab,6.577,0.85,2.735,1.759,1.14,0.079,0.006,0.008,0.814,90.85,24.94,2.305,3.545,6.683,0,6.806,165.489,88.7,76.19,carbon_black
S0453,industrial,10.383,2.012,2.918,4.488,0.725,0.047,0.193,0,1.392,95.71,5.11,4.003,3.412,10.505,0.415,8.58,187.655,87.78,76.39,resin
S0455,lab,10.216,7.25,1.798,1.061,0.017,0.008,0.004,0.078,2.188,89.09,16.23,3.971,3.523,18.374,1.001,10.037,162.74,113.57,68.88,graphite
S0457,lab,4.585,1.565,0.648,0.505,1.062,0.806,0,0,1.96,85.16,39.4,3.097,3.466,10.357,0,0.636,196.47,91.87,91.71,graphite
S0459,lab,1.216,0.665,0.02,0.398,0.127,0,0.005,0.001,1.712,90.74,26.36,1.783,3.552,3.713,0,0.416,175.395,80.73,73.69,graphite
S0461,lab,8.966,2.903,0.595,4.097,0.869,0.493,0.007,0,2.784,91.58,48.94,1.528,3.544,10.998,0,2.619,202.454,95.41,87.92,resin
S0463,lab,5.772,1.346,1.549,0.857,0.26,0.041,0.053,1.665,1.005,97.48,6.24,3.629,3.478,15.755,0,0,249.052,98.54,127.08,gnp
S0465,lab,11.449,2.919,0.408,5.53,2.245,0.002,0.344,0.001,2.782,93.39,43.83,0.2,3.579,11.994,0,10.473,186.808,98.48,81.35,resin
S0467,industrial,6.415,1.928,1.244,2.658,0.014,0.385,0.187,0,0.27,90.36,1.54,4.997,3.422,13.459,0,4.991,170.094,96.52,87.85,resin
S0469,lab,9.067,2.656,2.523,2.087,1.551,0,0,0.25,1.487,93.25,14.3,5.19,3.459,12.684,0.999,7.101,170.865,93.25,77.11,graphite
S0471,lab,6.539,5.204,0.015,0.005,1.215,0.099,0,0.001,1.037,93.76,42.54,0.2,3.534,16.987,0.067,3.712,183.359,103.08,81.21,graphite
S0473,industrial,5.919,1.888,0.542,3.161,0.131,0.016,0.179,0.002,1.908,88.84,30.22,0.938,3.568,10.054,0,3.189,185.614,93.75,77.28,resin
S0475,industrial,1.718,0.277,0.486,0.045,0.737,0.004,0.063,0.106,2.99,98.42,40.84,0.2,3.58,4.843,0,0.832,205.149,82.6,92.22,pitch
S0477,lab,10.741,2.764,0.911,1.95,5.032,0,0,0.084,1.797,95.08,44.62,1.487,3.524,11.655,0,8.503,187.9,95.01,88.96,pitch
S0479,industrial,6.323,2.295,2.28,0.525,0.939,0,0.229,0.055,0.352,94.52,48.41,4.694,3.34,10.222,1.852,3.346,160.24,93,75.63,graphite
S0481,industrial,4.293,3.04,0.527,0.714,0.003,0,0.005,0.004,1.227,89.39,6.71,2.412,3.52,8.394,0.908,4.083,150.899,91.61,68.73,graphite
S0483,lab,3.965,2.676,0.071,0.903,0.189,0.088,0.029,0.01,1.208,88.02,25.49,2.781,3.488,10.448,0.087,1.829,151.744,87.73,63.34,graphite
S0485,industrial,6.166,1.828,2.297,0.763,1.23,0.002,0.045,0.001,2.086,87.63,31.04,5.581,3.357,8.628,0.627,5.624,153.991,88.02,61.63,carbon_black
S0487,lab,3.765,2.674,0.253,0.489,0.249,0.01,0.09,0,0.934,98.58,25.82,2.232,3.5,10.837,0,0.748,162.233,89.14,77.57,graphite
S0489,lab,3.942,0.868,1.171,1.376,0.484,0.002,0.001,0.04,2.594,98.57,11.46,1.72,3.52,8.228,0,4.717,190.978,83.94,76.76,resin
S0491,industrial,5.227,2.641,0.973,0.27,0.175,1.138,0.027,0.002,1.716,93.22,47.03,1.311,3.563,16.932,0,0,225.312,101.59,121.83,graphite
S0493,industrial,2.724,1.181,0.685,0.539,0.314,0.002,0,0.002,1.231,96.06,18.56,2.448,3.505,7.01,0,1.663,169.146,81.32,66.22,graphite
S0495,lab,0.63,0.244,0.25,0.112,0.004,0,0.002,0.017,2.235,86.58,26.45,0.2,3.58,6.544,0,0.937,175.076,80.94,73.05,carbon_black
S0497,lab,7.129,1.044,1.769,0.184,0.114,0,1.19,2.827,0.312,87.72,40.23,4.315,3.424,27.394,0,0,309.174,127.04,150,gnp
S0499,lab,4.701,3.393,0.353,0.683,0.271,0,0.001,0,0.627,98.8,41.06,2.895,3.469,11.451,1.347,3.495,159.193,87.78,79.41,graphite
S0501,lab,2.509,0.612,0.636,0.065,1.129,0.027,0.002,0.038,1.426,98.39,17.59,0.2,3.58,7.274,0,0.678,189.047,81.29,78.64,pitch
S0503,lab,4.886,1.188,1.5,1.606,0.117,0,0.411,0.065,2.126,86.48,36.17,2.501,3.451,10,0.229,3.328,174.208,94.98,74.08,resin
S0505,industrial,6.663,2.481,1.022,1.138,0.576,0.411,0,1.035,1.933,92.01,3.77,1.378,3.532,16.584,0,0,238.858,107.04,138.69,graphite
S0507,lab,2.398,0.562,0.579,0.804,0.001,0,0.452,0,0.878,87.1,14.98,0.813,3.544,8.287,0,0,180.988,85.1,85.72,resin
S0509,industrial,1.701,1.22,0.025,0.107,0.341,0,0.001,0.006,1.314,89.53,34,0.2,3.542,7.556,1.037,0.261,179.795,72,82.5,graphite
S0511,industrial,3.563,0.554,0.56,1.474,0.812,0.092,0.035,0.037,2.955,94.27,38.03,0.2,3.555,7.303,0,2.181,189.921,85.69,84.03,resin
S0513,lab,3.563,1.607,1.05,0.82,0.067,0,0.008,0.01,0.494,96.37,16.19,3.388,3.444,5.653,0.509,4.542,165.253,91.08,65.87,graphite
S0515,lab,6.635,1.557,1.247,1.773,2.058,0,0,0,0.128,96.06,11.58,3.202,3.435,6.135,0.456,6.544,173.79,86.04,71.7,pitch
S0517,lab,8.458,2.097,1.406,2.535,0.339,1.063,0.003,1.015,0.343,87.72,5.18,3.691,3.428,18.939,0,0,225.394,110.85,127.59,resin
S0519,lab,1.277,0.132,0.34,0.295,0.106,0.37,0.033,0,2.574,96.97,42.62,1.018,3.58,10.091,0,0,210.068,84.99,93.27,graphene
S0521,lab,9.028,1.25,2.247,1.871,0.55,0.001,2.904,0.206,0.647,89.58,15.32,3.019,3.422,22.863,0,0,292.57,121.37,150,cnt
S0523,lab,4.773,2.064,1.674,0.476,0.467,0.092,0,0,1.524,87.96,35.63,1.742,3.515,8.506,0,5.032,164.898,87.86,71.48,graphite
S0525,industrial,2.363,0.855,0.035,0.89,0.055,0.478,0.034,0.016,2.517,95.83,44.76,0.434,3.58,7.871,0,0,219.751,95.7,93.89,resin
S0527,lab,5.229,1.485,1.628,1.146,0.258,0.134,0.577,0,1.528,91.49,49.91,2.182,3.488,8.141,0,0,188.411,87.27,86.65,carbon_black
S0529,lab,5.01,1.019,0.374,2.187,0.004,0,1.273,0.152,0.335,89.72,2.35,1.694,3.525,14.063,0,0,220.233,104.73,124.74,resin
S0531,lab,5.481,1.694,0.942,1.373,1.392,0.053,0.026,0.001,0.746,85.7,10.77,2.251,3.449,9.63,0,4.82,145.968,86.54,72.48,graphite
S0533,lab,4.639,2.674,0.05,0.528,0.166,0.01,1.102,0.11,1.902,87.14,12.62,0.573,3.543,15.267,0,0,209.459,110.66,110.05,graphite
S0535,lab,4.509,1.148,0.938,0.394,1.345,0,0.685,0,0.157,89.98,36.8,2.509,3.498,9.762,0,1.188,189.749,92.72,93.41,pitch
S0537,industrial,4.658,2.933,0.303,0.233,0.12,0.76,0.089,0.219,0.066,96.77,12.64,2.522,3.519,14.883,0,0,218.14,101.93,101.94,graphite
S0539,lab,7.464,3.589,1.066,1.168,1.505,0,0.009,0.126,0.331,90.55,46.38,3.717,3.505,11.877,0,6.457,145.884,91.69,67.21,graphite
S0541,lab,2.12,0.286,0.382,0.248,0.372,0,0.666,0.167,0.664,88.99,16.84,1.094,3.525,8.991,0,0,194.235,90.79,102.33,cnt
S0543,industrial,4.577,2.938,0.36,0.781,0.051,0.002,0.445,0,0.918,95.51,35.72,3.576,3.465,13.983,0,0.897,193.455,103.1,81.13,graphite
S0545,lab,3.463,1.229,0.372,0.17,0.56,0.115,0.087,0.93,1.637,95.01,2.72,1.042,3.502,12.225,0,0,234.086,101.49,107.56,graphite
S0547,lab,9.08,3.06,1.934,3.959,0.078,0.036,0,0.013,2.034,97.61,36.66,3.636,3.447,11.676,0.269,4.964,182.46,94.58,63.85,resin
S0549,lab,6.997,6.084,0.76,0.033,0.005,0.007,0.032,0.076,1.685,93.04,26.06,4.146,3.406,18.212,0,5.712,163.278,108.24,68.48,graphite
S0551,industrial,7.404,2.813,1.208,2.784,0.028,0,0.571,0,2.184,91.85,46.12,2.24,3.472,13.432,0,1.83,197.076,95.2,94.51,graphite
S0553,lab,5.857,1.803,1.218,0.748,0.958,0.073,1.056,0.001,2.612,87.88,45.5,1.89,3.538,15.493,0,0,209.617,96.82,122.12,graphite
S0555,lab,2.774,1.196,0.27,0.309,0.95,0,0.049,0.001,1.737,91.32,1.3,2.136,3.483,7.336,0,1.369,175.807,87.4,54.12,graphite
S0557,lab,6.296,4.17,0.602,0.918,0.135,0.027,0.444,0,1.925,88.65,2.21,2.997,3.453,15.261,0,1.913,170.806,108,75.5,graphite
S0559,lab,4.579,2.755,0.183,0.38,0.175,0,0.396,0.689,0.017,98.17,26.4,2.329,3.452,15.394,0,0.527,211.989,103.34,108.5,graphite
S0561,industrial,3.599,0.509,0.224,0.793,1.618,0,0,0.455,0.549,97.2,6.4,2.01,3.532,7.616,0,1.484,185.927,90.36,92.69,pitch
S0563,lab,5.472,2.732,0.945,1.567,0.087,0,0,0.14,2.616,90.04,47.07,3.197,3.484,9.992,0,3.696,177.905,95.21,65.3,graphite
S0565,lab,7.913,5.909,0.889,0.554,0.099,0.011,0.439,0.011,1.43,87.19,43.51,6.269,3.298,20.489,0,3.779,166.869,112.09,66.16,graphite
S0567,industrial,11.916,5.322,3.86,2.531,0.183,0.001,0.019,0,1.185,88.23,3.12,7.106,3.37,13.055,2.158,11.374,136.138,103.37,59.57,graphite
S0569,lab,3.401,1.216,0.08,1.162,0.768,0,0.067,0.107,1.091,92.39,1.84,1.016,3.542,7.344,0,1.754,166.056,82.95,77.08,graphite
S0571,lab,4.955,2.226,1.333,0.065,0.686,0.617,0,0.028,2.98,88.76,19.07,3.253,3.424,12.922,0,0,199.393,90.55,94.65,graphite
S0573,lab,9,2.915,2.633,0.993,1.732,0.644,0,0.083,0.344,86,34.77,5.946,3.381,17.077,0,3.686,171.561,92.75,87.77,graphite
S0575,lab,5.023,1.317,2.723,0.013,0.28,0,0.054,0.637,0.155,88.04,48.32,2.685,3.47,9.734,0,0.849,172.265,78.28,86.37,carbon_black
S0577,lab,5.136,1.899,0.73,0.229,1.032,0.923,0.251,0.072,0.316,98.71,9.88,4.295,3.423,14.025,0,0,205.684,96.84,111.88,graphite
S0579,industrial,3.646,0.706,0.458,0.547,1.281,0,0.013,0.642,2.823,97.32,32.23,0.2,3.58,10.791,0,0,238,96.11,99.86,pitch
S0581,lab,4.819,2.464,0.086,1.959,0.225,0.055,0.003,0.027,0.485,98.61,9.87,2.991,3.418,8.431,0.726,2.468,180.832,93.36,68.32,graphite
S0583,industrial,8.027,2.442,1.171,1.33,2.319,0.003,0,0.76,1.547,86.42,32.3,2.628,3.467,12.601,0,1.776,193.556,101.98,86.15,graphite
S0585,lab,7.944,0.334,3.315,0.901,0.722,0.04,1.995,0.637,0.665,93.02,27.46,5.596,3.38,20.465,0,0,255.308,112.19,150,carbon_black
S0587,lab,2.343,0.943,0.585,0.146,0.46,0.013,0.196,0.001,0.929,90.13,48.88,0.815,3.58,6.121,0,0,185.136,81.4,79.18,graphite
S0589,lab,10.34,4.417,5.707,0.049,0.022,0.117,0.005,0.023,1.97,91.08,43.48,9.502,3.242,10.69,4.479,6.058,141.113,98.1,65.86,carbon_black
S0591,lab,3.009,1.186,0.053,0.34,0.187,0.501,0.735,0.008,2.37,91.52,34.09,0.2,3.574,13.313,0,0,239.386,95.24,122.11,graphite
S0593,lab,7.353,2.622,0.873,1.483,1.471,0.019,0.882,0.004,0.871,96.65,1.17,1.704,3.508,15.349,0,1.35,209.599,97.56,105.4,graphite
S0595,lab,6.02,4.985,0.021,0.67,0.214,0.003,0,0.127,2.808,93.31,10.84,0.2,3.548,16.258,0,4.65,193.113,101.81,86.08,graphite
S0597,industrial,9.07,1.435,1.186,5.187,0.004,1,0.088,0.171,0.126,94.04,13.48,1.944,3.497,15.808,0,0.155,211.274,94.51,111.06,resin
S0599,lab,9.522,4.381,2.14,2.192,0.686,0,0.001,0.123,2.404,85.69,18.64,3.394,3.479,14.996,0,8.338,161.272,102.94,82.24,graphite
S0600,lab,3.272,0.465,0.747,1.224,0.124,0.66,0.009,0.044,2.315,97.41,21.61,0.2,3.493,10.191,0,0,216.866,90.8,96.48,resin